Block,Trial,ImageName,Response,RT,Correct,ConfidenceLevel
1,1,F_32_Animal_Test.jpg,Non-Animal,3.28124119999848,0,0.4
1,2,N_33_Non-Animal_Test.jpg,Non-Animal,2.70532570000069,1,0.65
1,3,F_36_Non-Animal_Test.jpg,Non-Animal,2.91184559999965,1,0.5
1,4,H_16_Animal_Test.jpg,Animal,1.84212019999904,1,1
1,5,H_65_Non-Animal_Test.jpg,Non-Animal,1.81717070000013,1,0.65
1,6,N_68_Non-Animal_Test.jpg,Animal,1.39357159999781,0,0.55
1,7,N_51_Animal_Test.jpg,Animal,1.8084858000002,1,1
1,8,M_48_Animal_Test.jpg,Animal,2.03860329999952,1,0.3
1,9,H_17_Non-Animal_Test.jpg,Non-Animal,1.74547769999845,1,0.8
1,10,M_18_Animal_Test.jpg,Animal,1.91495050000231,1,1
1,11,H_35_Non-Animal_Test.jpg,Non-Animal,2.04797369999869,1,1
1,12,N_2_Animal_Test.jpg,Animal,1.9416306000021,1,1
1,13,F_48_Animal_Test.jpg,Animal,2.24713180000253,1,0.55
1,14,M_46_Animal_Test.jpg,Animal,1.51904020000075,1,0.75
1,15,H_1_Animal_Test.jpg,Animal,1.70995240000047,1,0.9
1,16,F_3_Animal_Test.jpg,Animal,1.59716549999939,1,0.85
1,17,N_20_Non-Animal_Test.jpg,Non-Animal,1.81972970000061,1,0.85
1,18,F_51_Animal_Test.jpg,Animal,1.41902869999831,1,0.8
1,19,H_21_Non-Animal_Test.jpg,Non-Animal,1.72565310000209,1,0.6
1,20,M_36_Animal_Test.jpg,Animal,1.41061849999824,1,0.75
1,21,F_34_Animal_Test.jpg,Animal,1.50300990000324,1,0.85
1,22,H_45_Animal_Test.jpg,Animal,1.73185190000004,1,0.9
1,23,M_31_Non-Animal_Test.jpg,Non-Animal,1.92266360000212,1,1
1,24,H_64_Non-Animal_Test.jpg,Non-Animal,1.70413340000232,1,0.3
1,25,H_31_Animal_Test.jpg,Animal,2.36164229999849,1,1
1,26,M_3_Animal_Test.jpg,Non-Animal,2.65976420000152,0,0.45
1,27,F_30_Non-Animal_Test.jpg,Non-Animal,2.16321719999905,1,1
1,28,M_63_Animal_Test.jpg,Animal,1.84147049999956,1,1
1,29,F_73_Animal_Test.jpg,Animal,2.80416610000248,1,0.45
1,30,H_5_Non-Animal_Test.jpg,Non-Animal,2.4785555999988,1,0.85
1,31,F_26_Animal_Test.jpg,Animal,1.62384499999825,1,0.4
1,32,H_30_Animal_Test.jpg,Animal,1.92447870000251,1,1
1,33,M_66_Non-Animal_Test.jpg,Non-Animal,2.56865779999862,1,0.35
1,34,H_1_Non-Animal_Test.jpg,Non-Animal,1.62338950000048,1,0.75
1,35,F_71_Non-Animal_Test.jpg,Non-Animal,1.92945239999972,1,0.85
1,36,F_71_Animal_Test.jpg,Non-Animal,2.81977909999841,0,0.2
1,37,F_7_Non-Animal_Test.jpg,Non-Animal,2.14991659999941,1,1
1,38,N_58_Animal_Test.jpg,Animal,1.83807570000135,1,1
1,39,M_33_Animal_Test.jpg,Animal,1.8163719999975,1,1
1,40,M_15_Animal_Test.jpg,Animal,2.50959800000055,1,1
1,41,F_21_Animal_Test.jpg,Animal,2.04630980000002,1,1
1,42,M_1_Non-Animal_Test.jpg,Non-Animal,2.03763780000008,1,1
1,43,F_25_Non-Animal_Test.jpg,Non-Animal,1.59645010000168,1,0.7
1,44,H_56_Animal_Test.jpg,Animal,1.91203999999925,1,1
1,45,F_8_Animal_Test.jpg,Animal,1.40596780000124,1,0.75
1,46,F_36_Animal_Test.jpg,Animal,1.49825120000241,1,0.85
1,47,H_58_Non-Animal_Test.jpg,Non-Animal,2.12648949999857,1,0.7
1,48,N_44_Non-Animal_Test.jpg,Animal,2.25015120000171,0,0.35
1,49,N_14_Animal_Test.jpg,Animal,2.2438413000018,1,1
1,50,M_47_Animal_Test.jpg,Animal,2.14452510000046,1,0.35
1,51,H_9_Non-Animal_Test.jpg,Non-Animal,2.27450540000063,1,0.8
1,52,F_29_Non-Animal_Test.jpg,Non-Animal,2.03933839999809,1,1
1,53,N_70_Non-Animal_Test.jpg,Non-Animal,1.92049979999865,1,0.55
1,54,F_65_Animal_Test.jpg,Non-Animal,3.31206480000037,0,0.35
1,55,H_30_Non-Animal_Test.jpg,Non-Animal,2.13918810000177,1,0.9
1,56,N_1_Animal_Test.jpg,Non-Animal,2.06597679999686,0,0.65
1,57,F_43_Non-Animal_Test.jpg,Non-Animal,1.61340039999777,1,0.75
1,58,N_72_Animal_Test.jpg,Animal,1.93493730000046,1,1
1,59,N_8_Animal_Test.jpg,Animal,1.95599609999772,1,1
1,60,H_29_Non-Animal_Test.jpg,Non-Animal,1.82637089999844,1,0.45
1,61,H_12_Non-Animal_Test.jpg,Non-Animal,2.57272010000088,1,0.6
1,62,M_22_Non-Animal_Test.jpg,Non-Animal,1.61229089999688,1,0.8
1,63,H_16_Non-Animal_Test.jpg,Non-Animal,3.36154069999975,1,0.1
1,64,F_70_Animal_Test.jpg,Animal,1.8213551000008,1,0.9
1,65,M_47_Non-Animal_Test.jpg,Animal,1.93357139999716,0,0.25
1,66,M_16_Animal_Test.jpg,Non-Animal,1.74388869999893,0,0.35
1,67,F_37_Animal_Test.jpg,Animal,2.15336460000253,1,0.7
1,68,M_35_Animal_Test.jpg,Animal,1.72641360000125,1,1
1,69,N_66_Animal_Test.jpg,Animal,1.74729520000255,1,0.85
1,70,N_59_Animal_Test.jpg,Animal,1.48934000000008,1,0.7
1,71,H_44_Non-Animal_Test.jpg,Non-Animal,1.92836439999883,1,0.95
1,72,H_42_Non-Animal_Test.jpg,Non-Animal,1.74007699999856,1,0.75
1,73,M_64_Animal_Test.jpg,Animal,1.93013020000217,1,1
1,74,F_53_Animal_Test.jpg,Animal,2.04485660000137,1,1
1,75,N_66_Non-Animal_Test.jpg,Non-Animal,1.51435549999951,1,0.7
1,76,N_69_Non-Animal_Test.jpg,Non-Animal,2.06073269999979,1,0.75
1,77,F_75_Non-Animal_Test.jpg,Non-Animal,1.53684860000067,1,0.7
1,78,N_44_Animal_Test.jpg,Animal,1.73562509999829,1,0.9
1,79,N_71_Animal_Test.jpg,Animal,2.04206069999782,1,1
1,80,M_4_Animal_Test.jpg,Animal,2.03346380000221,1,1
1,81,H_2_Non-Animal_Test.jpg,Non-Animal,2.15344779999941,1,0.7
1,82,F_42_Non-Animal_Test.jpg,Animal,1.63322510000216,0,0.35
1,83,N_61_Non-Animal_Test.jpg,Non-Animal,2.37332379999862,1,0.3
1,84,F_66_Animal_Test.jpg,Animal,1.49882069999876,1,0.7
1,85,H_13_Non-Animal_Test.jpg,Non-Animal,1.75780710000254,1,0.65
1,86,M_50_Animal_Test.jpg,Animal,2.37455599999885,1,0.3
1,87,H_53_Non-Animal_Test.jpg,Non-Animal,2.16873499999929,1,0.65
1,88,F_24_Animal_Test.jpg,Animal,1.62604859999919,1,0.75
1,89,M_70_Animal_Test.jpg,Animal,2.05163710000124,1,1
1,90,N_46_Animal_Test.jpg,Animal,2.05554710000069,1,1
1,91,H_9_Animal_Test.jpg,Animal,1.93575850000343,1,0.85
1,92,H_27_Non-Animal_Test.jpg,Non-Animal,2.36904119999963,1,1
1,93,N_71_Non-Animal_Test.jpg,Non-Animal,2.38611170000149,1,0.4
1,94,H_23_Animal_Test.jpg,Animal,2.46098119999806,1,0.95
1,95,H_61_Animal_Test.jpg,Animal,1.96198920000097,1,1
1,96,M_50_Non-Animal_Test.jpg,Non-Animal,1.72291910000058,1,0.75
1,97,N_45_Animal_Test.jpg,Animal,1.52275109999755,1,0.8
1,98,M_51_Animal_Test.jpg,Animal,1.96001030000116,1,1
1,99,H_34_Animal_Test.jpg,Animal,1.64013309999791,1,0.85
1,100,M_29_Non-Animal_Test.jpg,Non-Animal,1.81352690000131,1,1
1,101,F_11_Non-Animal_Test.jpg,Non-Animal,1.94686770000044,1,1
1,102,F_64_Animal_Test.jpg,Non-Animal,1.82621700000163,0,0.25
1,103,M_5_Non-Animal_Test.jpg,Non-Animal,1.60678100000223,1,0.9
1,104,N_4_Non-Animal_Test.jpg,Non-Animal,2.01907400000346,1,1
1,105,F_47_Non-Animal_Test.jpg,Animal,1.29614550000042,0,0.65
1,106,M_44_Animal_Test.jpg,Animal,1.72447230000034,1,1
1,107,N_38_Animal_Test.jpg,Animal,1.82847490000131,1,1
1,108,H_19_Non-Animal_Test.jpg,Non-Animal,1.83401769999909,1,0.7
1,109,M_5_Animal_Test.jpg,Animal,1.81568899999911,1,1
1,110,H_51_Non-Animal_Test.jpg,Non-Animal,1.5951344999994,1,0.4
1,111,M_49_Non-Animal_Test.jpg,Non-Animal,1.39472200000091,1,0.4
1,112,F_56_Animal_Test.jpg,Animal,2.02523479999945,1,1
1,113,N_5_Non-Animal_Test.jpg,Non-Animal,1.61811419999867,1,0.75
1,114,N_50_Non-Animal_Test.jpg,Animal,1.84289630000058,0,0.3
1,115,H_4_Non-Animal_Test.jpg,Non-Animal,1.93689380000069,1,1
1,116,F_4_Non-Animal_Test.jpg,Non-Animal,1.83358619999854,1,1
1,117,H_7_Non-Animal_Test.jpg,Non-Animal,1.71327440000096,1,0.9
1,118,F_54_Non-Animal_Test.jpg,Non-Animal,1.72695349999776,1,0.75
1,119,H_46_Animal_Test.jpg,Animal,1.91919829999824,1,1
1,120,N_15_Non-Animal_Test.jpg,Non-Animal,1.81677350000245,1,0.3
2,1,F_64_Non-Animal_Test.jpg,Non-Animal,3.83906849999767,1,0.85
2,2,H_19_Animal_Test.jpg,Animal,1.59873340000195,1,0.4
2,3,H_72_Non-Animal_Test.jpg,Non-Animal,2.17621700000018,1,0.7
2,4,M_61_Animal_Test.jpg,Animal,1.84980630000064,1,0.95
2,5,H_66_Animal_Test.jpg,Animal,1.75671579999835,1,0.25
2,6,H_25_Non-Animal_Test.jpg,Non-Animal,1.97509559999889,1,0.35
2,7,N_21_Animal_Test.jpg,Non-Animal,1.87500700000237,0,0.55
2,8,F_28_Non-Animal_Test.jpg,Non-Animal,1.67559270000129,1,0.8
2,9,H_15_Animal_Test.jpg,Animal,2.51725069999884,1,1
2,10,H_74_Animal_Test.jpg,Animal,1.98585450000246,1,1
2,11,M_72_Animal_Test.jpg,Animal,1.96606430000247,1,1
2,12,M_53_Animal_Test.jpg,Animal,1.86639080000168,1,1
2,13,M_4_Non-Animal_Test.jpg,Non-Animal,1.96688629999699,1,1
2,14,N_63_Non-Animal_Test.jpg,Animal,2.07784449999963,0,0.7
2,15,F_49_Non-Animal_Test.jpg,Non-Animal,2.21290189999854,1,0.35
2,16,M_54_Animal_Test.jpg,Animal,2.33615470000223,1,0.6
2,17,M_8_Animal_Test.jpg,Animal,1.88225270000112,1,1
2,18,N_22_Animal_Test.jpg,Animal,1.66779980000138,1,1
2,19,H_46_Non-Animal_Test.jpg,Non-Animal,1.76518519999809,1,0.8
2,20,N_23_Animal_Test.jpg,Animal,1.96171489999688,1,1
2,21,N_65_Animal_Test.jpg,Animal,2.6215538999968,1,0.45
2,22,F_21_Non-Animal_Test.jpg,Non-Animal,2.30408929999976,1,0.9
2,23,F_18_Animal_Test.jpg,Animal,1.96086490000016,1,1
2,24,N_33_Animal_Test.jpg,Animal,1.88047439999718,1,1
2,25,F_52_Non-Animal_Test.jpg,Non-Animal,1.56188729999849,1,0.3
2,26,H_47_Non-Animal_Test.jpg,Non-Animal,3.43999649999751,1,0.35
2,27,M_15_Non-Animal_Test.jpg,Non-Animal,2.65894509999998,1,0.95
2,28,H_59_Animal_Test.jpg,Animal,1.87348420000126,1,1
2,29,M_40_Animal_Test.jpg,Animal,2.86158029999933,1,0.3
2,30,H_32_Non-Animal_Test.jpg,Non-Animal,2.09923739999795,1,1
2,31,F_41_Animal_Test.jpg,Animal,2.75335560000167,1,0.95
2,32,F_5_Non-Animal_Test.jpg,Non-Animal,2.40314370000124,1,0.75
2,33,H_36_Animal_Test.jpg,Animal,1.88273579999804,1,1
2,34,H_18_Non-Animal_Test.jpg,Non-Animal,1.75836269999854,1,1
2,35,F_7_Animal_Test.jpg,Animal,3.08462940000027,1,0.75
2,36,M_23_Non-Animal_Test.jpg,Non-Animal,2.20540149999943,1,0.9
2,37,F_58_Animal_Test.jpg,Animal,1.87961770000038,1,1
2,38,N_39_Animal_Test.jpg,Animal,1.85144390000278,1,1
2,39,F_22_Non-Animal_Test.jpg,Non-Animal,2.01332069999989,1,1
2,40,H_27_Animal_Test.jpg,Animal,1.75742170000012,1,1
2,41,N_4_Animal_Test.jpg,Animal,1.86890259999927,1,1
2,42,M_9_Animal_Test.jpg,Animal,2.30498739999894,1,1
2,43,M_2_Non-Animal_Test.jpg,Non-Animal,8.46498390000124,1,0.35
2,44,M_45_Animal_Test.jpg,Animal,2.20183649999672,1,0.35
2,45,F_45_Animal_Test.jpg,Animal,1.55517650000183,1,0.65
2,46,M_37_Non-Animal_Test.jpg,Non-Animal,2.53563179999765,1,0.6
2,47,F_24_Non-Animal_Test.jpg,Non-Animal,1.65579149999758,1,0.85
2,48,F_15_Non-Animal_Test.jpg,Non-Animal,2.09041100000104,1,0.8
2,49,H_32_Animal_Test.jpg,Animal,3.74348790000295,1,1
2,50,N_68_Animal_Test.jpg,Animal,2.07992279999962,1,1
2,51,M_69_Non-Animal_Test.jpg,Non-Animal,2.97279600000184,1,0.3
2,52,N_41_Animal_Test.jpg,Animal,1.99735490000239,1,1
2,53,N_47_Non-Animal_Test.jpg,Non-Animal,2.75980979999804,1,0.35
2,54,N_40_Animal_Test.jpg,Animal,2.11866780000128,1,1
2,55,M_12_Animal_Test.jpg,Animal,1.87239129999944,1,1
2,56,F_48_Non-Animal_Test.jpg,Non-Animal,2.43817279999712,1,0.9
2,57,N_26_Non-Animal_Test.jpg,Non-Animal,1.88863870000205,1,0.8
2,58,N_60_Animal_Test.jpg,Animal,1.97724770000059,1,1
2,59,H_42_Animal_Test.jpg,Animal,1.87724449999951,1,1
2,60,F_59_Non-Animal_Test.jpg,Non-Animal,2.2049597999976,1,0.4
2,61,M_11_Non-Animal_Test.jpg,Non-Animal,1.87174100000266,1,0.9
2,62,N_24_Animal_Test.jpg,Animal,2.4731967000007,1,0.8
2,63,N_25_Animal_Test.jpg,Animal,2.52391349999743,1,1
2,64,M_32_Animal_Test.jpg,Animal,3.16993980000188,1,0.3
2,65,M_49_Animal_Test.jpg,Non-Animal,3.20540210000036,0,0.35
2,66,N_17_Animal_Test.jpg,Animal,1.77195930000016,1,1
2,67,H_53_Animal_Test.jpg,Animal,1.76064550000228,1,1
2,68,M_75_Animal_Test.jpg,Animal,2.20169819999865,1,1
2,69,F_16_Animal_Test.jpg,Animal,2.00400560000344,1,1
2,70,H_37_Non-Animal_Test.jpg,Non-Animal,1.99403620000157,1,1
2,71,H_57_Non-Animal_Test.jpg,Non-Animal,1.88278069999797,1,1
2,72,F_69_Animal_Test.jpg,Animal,1.54488540000239,1,0.8
2,73,F_20_Animal_Test.jpg,Animal,1.74212819999957,1,1
2,74,F_8_Non-Animal_Test.jpg,Non-Animal,1.86284620000151,1,0.9
2,75,M_51_Non-Animal_Test.jpg,Non-Animal,2.67818579999948,1,0.7
2,76,N_58_Non-Animal_Test.jpg,Non-Animal,2.33159789999991,1,0.65
2,77,N_10_Non-Animal_Test.jpg,Non-Animal,1.785952000002,1,1
2,78,H_8_Non-Animal_Test.jpg,Non-Animal,1.7917157999982,1,1
2,79,N_70_Animal_Test.jpg,Animal,1.86210299999948,1,1
2,80,H_33_Non-Animal_Test.jpg,Non-Animal,2.72432110000227,1,0.9
2,81,M_46_Non-Animal_Test.jpg,Non-Animal,2.20117939999909,1,0.8
2,82,M_57_Non-Animal_Test.jpg,Non-Animal,1.98498520000066,1,0.65
2,83,F_73_Non-Animal_Test.jpg,Non-Animal,2.43877369999973,1,0.75
2,84,M_13_Non-Animal_Test.jpg,Non-Animal,2.65004960000078,1,0.9
2,85,H_34_Non-Animal_Test.jpg,Non-Animal,2.07607410000128,1,0.95
2,86,N_7_Non-Animal_Test.jpg,Non-Animal,2.31618710000112,1,1
2,87,M_8_Non-Animal_Test.jpg,Non-Animal,2.09747509999943,1,1
2,88,H_3_Non-Animal_Test.jpg,Non-Animal,1.74211450000075,1,1
2,89,H_68_Animal_Test.jpg,Non-Animal,3.51078369999959,0,0.9
2,90,N_75_Non-Animal_Test.jpg,Non-Animal,1.95283039999777,1,1
2,91,H_22_Animal_Test.jpg,Animal,2.0941774999992,1,1
2,92,F_33_Non-Animal_Test.jpg,Non-Animal,2.42220059999818,1,0.4
2,93,M_21_Animal_Test.jpg,Animal,1.87749650000114,1,1
2,94,F_19_Non-Animal_Test.jpg,Non-Animal,2.1963911999992,1,0.75
2,95,M_10_Non-Animal_Test.jpg,Non-Animal,1.77898830000049,1,0.9
2,96,H_55_Animal_Test.jpg,Animal,1.88100059999852,1,1
2,97,N_32_Animal_Test.jpg,Animal,1.76474940000116,1,1
2,98,H_69_Non-Animal_Test.jpg,Non-Animal,2.89721790000112,1,0.65
2,99,N_3_Animal_Test.jpg,Animal,1.75962350000191,1,1
2,100,N_57_Animal_Test.jpg,Animal,1.76077499999883,1,1
2,101,M_2_Animal_Test.jpg,Animal,3.73800780000238,1,0.3
2,102,H_40_Animal_Test.jpg,Animal,1.89394500000344,1,1
2,103,F_54_Animal_Test.jpg,Animal,1.88886700000148,1,1
2,104,M_7_Animal_Test.jpg,Animal,1.77240009999878,1,1
2,105,F_23_Animal_Test.jpg,Animal,1.87174650000088,1,1
2,106,N_64_Animal_Test.jpg,Animal,1.76090420000037,1,1
2,107,N_41_Non-Animal_Test.jpg,Non-Animal,2.7691883999978,1,0.6
2,108,F_60_Non-Animal_Test.jpg,Non-Animal,4.40984119999848,1,0.75
2,109,M_33_Non-Animal_Test.jpg,Non-Animal,3.99686560000191,1,1
2,110,M_34_Animal_Test.jpg,Animal,3.06383819999974,1,1
2,111,F_16_Non-Animal_Test.jpg,Non-Animal,1.96863429999939,1,1
2,112,F_19_Animal_Test.jpg,Animal,2.32541920000222,1,0.4
2,113,N_13_Animal_Test.jpg,Animal,1.96944440000152,1,1
2,114,N_25_Non-Animal_Test.jpg,Non-Animal,3.5441419000017,1,0.75
2,115,H_50_Non-Animal_Test.jpg,Non-Animal,3.5180451999986,1,0.6
2,116,N_8_Non-Animal_Test.jpg,Non-Animal,2.63957500000106,1,0.7
2,117,F_14_Animal_Test.jpg,Non-Animal,3.52969640000083,0,0.3
2,118,F_47_Animal_Test.jpg,Animal,1.88507530000061,1,0.95
2,119,N_57_Non-Animal_Test.jpg,Animal,3.20760539999901,0,0.3
2,120,M_24_Animal_Test.jpg,Non-Animal,2.34816830000273,0,0.8
3,1,H_40_Non-Animal_Test.jpg,Non-Animal,1.52636020000136,1,0.7
3,2,M_13_Animal_Test.jpg,Animal,1.763642599999,1,0.35
3,3,H_62_Animal_Test.jpg,Animal,1.85100739999689,1,1
3,4,N_19_Non-Animal_Test.jpg,Non-Animal,1.98645029999898,1,1
3,5,N_10_Animal_Test.jpg,Non-Animal,3.82338070000333,0,0.3
3,6,F_11_Animal_Test.jpg,Animal,3.06186250000246,1,0.35
3,7,N_75_Animal_Test.jpg,Animal,1.87076810000144,1,1
3,8,N_26_Animal_Test.jpg,Animal,1.74012779999975,1,1
3,9,N_48_Animal_Test.jpg,Animal,1.78662950000216,1,1
3,10,F_65_Non-Animal_Test.jpg,Non-Animal,2.30916190000062,1,0.4
3,11,N_32_Non-Animal_Test.jpg,Non-Animal,1.86743150000257,1,1
3,12,M_45_Non-Animal_Test.jpg,Non-Animal,2.63098929999978,1,0.8
3,13,H_10_Animal_Test.jpg,Animal,1.64280399999916,1,1
3,14,M_17_Non-Animal_Test.jpg,Non-Animal,1.96773279999979,1,1
3,15,M_68_Non-Animal_Test.jpg,Non-Animal,2.07873519999703,1,0.65
3,16,F_34_Non-Animal_Test.jpg,Non-Animal,3.20278529999996,1,0.7
3,17,M_23_Animal_Test.jpg,Animal,2.182819499998,1,0.85
3,18,M_62_Animal_Test.jpg,Animal,2.18559930000265,1,0.9
3,19,N_56_Animal_Test.jpg,Animal,1.87431280000237,1,1
3,20,M_11_Animal_Test.jpg,Animal,1.63374490000206,1,1
3,21,N_54_Animal_Test.jpg,Animal,1.76055120000092,1,1
3,22,M_59_Non-Animal_Test.jpg,Non-Animal,2.51318660000106,1,0.6
3,23,H_71_Non-Animal_Test.jpg,Non-Animal,2.20373319999999,1,0.95
3,24,F_61_Non-Animal_Test.jpg,Non-Animal,3.44657329999973,1,0.25
3,25,N_19_Animal_Test.jpg,Animal,2.39898280000125,1,1
3,26,N_16_Non-Animal_Test.jpg,Non-Animal,2.07430349999777,1,1
3,27,F_59_Animal_Test.jpg,Non-Animal,2.85469870000088,0,0.85
3,28,N_11_Animal_Test.jpg,Animal,1.8484421999965,1,1
3,29,N_1_Non-Animal_Test.jpg,Non-Animal,2.44327749999866,1,0.35
3,30,H_20_Non-Animal_Test.jpg,Non-Animal,3.96882689999984,1,0.75
3,31,H_57_Animal_Test.jpg,Animal,1.96365570000125,1,1
3,32,H_4_Animal_Test.jpg,Animal,1.65755869999703,1,1
3,33,N_21_Non-Animal_Test.jpg,Non-Animal,1.75405929999761,1,1
3,34,N_49_Non-Animal_Test.jpg,Non-Animal,2.0972737000011,1,0.8
3,35,M_6_Non-Animal_Test.jpg,Non-Animal,1.51485200000025,1,0.9
3,36,M_56_Non-Animal_Test.jpg,Non-Animal,1.85991610000201,1,0.9
3,37,F_20_Non-Animal_Test.jpg,Non-Animal,2.44841969999834,1,1
3,38,M_55_Non-Animal_Test.jpg,Non-Animal,1.86623220000183,1,0.7
3,39,N_35_Non-Animal_Test.jpg,Non-Animal,1.43993190000037,1,0.9
3,40,M_27_Animal_Test.jpg,Animal,1.87666549999994,1,1
3,41,N_2_Non-Animal_Test.jpg,Non-Animal,1.75510220000069,1,1
3,42,F_31_Animal_Test.jpg,Animal,2.213306499998,1,0.5
3,43,M_1_Animal_Test.jpg,Animal,1.9902293999985,1,0.95
3,44,H_24_Animal_Test.jpg,Animal,1.75232669999968,1,1
3,45,F_9_Non-Animal_Test.jpg,Non-Animal,1.87780760000169,1,1
3,46,M_55_Animal_Test.jpg,Animal,1.64164209999944,1,1
3,47,H_68_Non-Animal_Test.jpg,Non-Animal,1.84940060000008,1,0.35
3,48,F_17_Non-Animal_Test.jpg,Non-Animal,2.29480619999958,1,1
3,49,N_51_Non-Animal_Test.jpg,Non-Animal,2.41020290000233,1,0.3
3,50,M_38_Animal_Test.jpg,Animal,1.76007340000069,1,1
3,51,H_60_Animal_Test.jpg,Animal,1.62189220000073,1,1
3,52,N_49_Animal_Test.jpg,Animal,1.30587580000065,1,0.9
3,53,H_69_Animal_Test.jpg,Animal,2.3781768000008,1,0.45
3,54,H_41_Animal_Test.jpg,Animal,1.85271849999845,1,1
3,55,F_15_Animal_Test.jpg,Non-Animal,2.40643120000095,0,0.7
3,56,F_28_Animal_Test.jpg,Animal,1.98685920000207,1,0.95
3,57,F_18_Non-Animal_Test.jpg,Non-Animal,2.72036420000222,1,0.95
3,58,M_42_Non-Animal_Test.jpg,Non-Animal,2.0844118999994,1,0.4
3,59,N_52_Non-Animal_Test.jpg,Non-Animal,2.17782919999809,1,0.8
3,60,F_30_Animal_Test.jpg,Animal,2.19098260000101,1,0.75
3,61,M_21_Non-Animal_Test.jpg,Non-Animal,1.87182899999971,1,1
3,62,H_55_Non-Animal_Test.jpg,Non-Animal,2.40805220000038,1,0.35
3,63,H_29_Animal_Test.jpg,Animal,1.9815955999984,1,1
3,64,F_44_Animal_Test.jpg,Animal,1.98691429999963,1,1
3,65,M_18_Non-Animal_Test.jpg,Non-Animal,2.4205507000006,1,1
3,66,F_70_Non-Animal_Test.jpg,Animal,2.61721740000212,0,0.3
3,67,N_50_Animal_Test.jpg,Animal,1.78054589999738,1,1
3,68,F_49_Animal_Test.jpg,Animal,1.86059100000057,1,1
3,69,H_13_Animal_Test.jpg,Animal,1.75054079999973,1,1
3,70,H_17_Animal_Test.jpg,Animal,1.74158759999773,1,1
3,71,N_62_Animal_Test.jpg,Animal,1.84152729999914,1,1
3,72,M_12_Non-Animal_Test.jpg,Non-Animal,1.77735700000267,1,0.7
3,73,H_74_Non-Animal_Test.jpg,Non-Animal,1.76873559999876,1,0.9
3,74,H_70_Animal_Test.jpg,Animal,2.74913659999947,1,0.3
3,75,H_73_Animal_Test.jpg,Animal,1.74983249999786,1,1
3,76,M_22_Animal_Test.jpg,Animal,1.77632929999891,1,1
3,77,F_2_Animal_Test.jpg,Animal,2.18156400000225,1,0.35
3,78,M_52_Animal_Test.jpg,Animal,1.73663189999934,1,1
3,79,H_49_Non-Animal_Test.jpg,Non-Animal,2.62404389999938,1,0.4
3,80,N_42_Animal_Test.jpg,Animal,2.09398160000273,1,1
3,81,F_57_Non-Animal_Test.jpg,Non-Animal,2.40699120000136,1,0.35
3,82,N_11_Non-Animal_Test.jpg,Non-Animal,1.98195520000081,1,1
3,83,F_26_Non-Animal_Test.jpg,Non-Animal,1.76175220000005,1,1
3,84,M_28_Non-Animal_Test.jpg,Non-Animal,2.20751179999934,1,0.95
3,85,M_63_Non-Animal_Test.jpg,Non-Animal,1.89377140000215,1,0.65
3,86,F_10_Animal_Test.jpg,Non-Animal,1.63621190000049,0,0.85
3,87,N_53_Non-Animal_Test.jpg,Non-Animal,1.64543849999973,1,1
3,88,F_74_Non-Animal_Test.jpg,Non-Animal,2.53287450000062,1,0.35
3,89,N_37_Non-Animal_Test.jpg,Non-Animal,1.77539099999922,1,0.7
3,90,F_53_Non-Animal_Test.jpg,Non-Animal,1.71707990000141,1,0.95
3,91,F_14_Non-Animal_Test.jpg,Non-Animal,1.74653690000196,1,1
3,92,F_50_Animal_Test.jpg,Animal,2.99224379999941,1,0.25
3,93,F_61_Animal_Test.jpg,Non-Animal,2.8815496999996,0,0.4
3,94,F_50_Non-Animal_Test.jpg,Non-Animal,2.77561879999848,1,0.65
3,95,N_38_Non-Animal_Test.jpg,Non-Animal,1.57036109999899,1,0.5
3,96,N_9_Non-Animal_Test.jpg,Non-Animal,1.85207780000201,1,1
3,97,H_66_Non-Animal_Test.jpg,Non-Animal,1.63837860000058,1,1
3,98,F_1_Non-Animal_Test.jpg,Non-Animal,1.87595309999961,1,1
3,99,M_7_Non-Animal_Test.jpg,Non-Animal,1.66190220000135,1,1
3,100,N_64_Non-Animal_Test.jpg,Non-Animal,2.28148109999893,1,0.6
3,101,M_19_Non-Animal_Test.jpg,Non-Animal,1.62213870000051,1,1
3,102,N_52_Animal_Test.jpg,Animal,1.86251189999894,1,1
3,103,H_59_Non-Animal_Test.jpg,Non-Animal,1.97954590000154,1,0.45
3,104,H_2_Animal_Test.jpg,Animal,1.76695560000007,1,1
3,105,F_46_Non-Animal_Test.jpg,Non-Animal,2.55736360000083,1,0.6
3,106,N_35_Animal_Test.jpg,Animal,1.75652840000112,1,1
3,107,F_3_Non-Animal_Test.jpg,Non-Animal,1.75539639999988,1,0.95
3,108,F_17_Animal_Test.jpg,Animal,1.87864199999967,1,1
3,109,H_25_Animal_Test.jpg,Animal,1.75100440000097,1,1
3,110,F_5_Animal_Test.jpg,Animal,1.62669879999885,1,1
3,111,H_67_Non-Animal_Test.jpg,Animal,2.19524450000245,0,0.4
3,112,H_48_Non-Animal_Test.jpg,Animal,3.07082000000082,0,0.3
3,113,H_12_Animal_Test.jpg,Animal,1.7271619000021,1,1
3,114,H_39_Non-Animal_Test.jpg,Non-Animal,2.42393779999838,1,1
3,115,F_56_Non-Animal_Test.jpg,Non-Animal,2.84565380000276,1,0.7
3,116,H_15_Non-Animal_Test.jpg,Non-Animal,1.75559169999906,1,1
3,117,F_23_Non-Animal_Test.jpg,Non-Animal,1.75540879999971,1,1
3,118,N_34_Animal_Test.jpg,Animal,1.68065159999969,1,1
3,119,F_13_Non-Animal_Test.jpg,Non-Animal,2.19490500000029,1,1
3,120,H_67_Animal_Test.jpg,Animal,1.60788849999881,1,1
4,1,H_20_Animal_Test.jpg,Animal,2.02174389999709,1,1
4,2,N_67_Non-Animal_Test.jpg,Non-Animal,2.02023840000038,1,0.65
4,3,N_46_Non-Animal_Test.jpg,Non-Animal,1.80776450000121,1,0.8
4,4,M_72_Non-Animal_Test.jpg,Non-Animal,1.70399739999993,1,0.9
4,5,M_20_Non-Animal_Test.jpg,Non-Animal,1.81032539999796,1,1
4,6,M_58_Animal_Test.jpg,Animal,1.8084987000002,1,1
4,7,M_60_Non-Animal_Test.jpg,Non-Animal,2.87001400000008,1,0.35
4,8,N_37_Animal_Test.jpg,Animal,1.81090179999956,1,1
4,9,H_75_Non-Animal_Test.jpg,Non-Animal,2.33866309999939,1,0.65
4,10,F_9_Animal_Test.jpg,Animal,2.23505909999949,1,0.35
4,11,M_30_Animal_Test.jpg,Animal,2.44604609999806,1,0.2
4,12,M_26_Animal_Test.jpg,Animal,1.59652569999889,1,1
4,13,H_28_Non-Animal_Test.jpg,Non-Animal,2.02085439999792,1,1
4,14,F_29_Animal_Test.jpg,Animal,1.4908385000017,1,0.8
4,15,N_34_Non-Animal_Test.jpg,Non-Animal,1.59647829999813,1,0.95
4,16,N_24_Non-Animal_Test.jpg,Non-Animal,1.91647649999868,1,1
4,17,H_23_Non-Animal_Test.jpg,Non-Animal,1.91515080000318,1,1
4,18,M_69_Animal_Test.jpg,Animal,1.80911019999985,1,1
4,19,M_14_Non-Animal_Test.jpg,Non-Animal,1.80829710000035,1,1
4,20,N_20_Animal_Test.jpg,Animal,1.80938789999709,1,1
4,21,M_34_Non-Animal_Test.jpg,Non-Animal,1.91601020000235,1,1
4,22,N_36_Non-Animal_Test.jpg,Non-Animal,1.91602210000201,1,0.3
4,23,M_58_Non-Animal_Test.jpg,Non-Animal,2.12740940000003,1,0.7
4,24,F_43_Animal_Test.jpg,Animal,2.02480419999847,1,0.8
4,25,H_63_Non-Animal_Test.jpg,Non-Animal,2.12672860000021,1,0.3
4,26,N_28_Animal_Test.jpg,Animal,1.91417509999883,1,0.9
4,27,N_42_Non-Animal_Test.jpg,Non-Animal,2.02040280000074,1,0.7
4,28,F_75_Animal_Test.jpg,Animal,1.59705240000039,1,0.85
4,29,H_38_Non-Animal_Test.jpg,Non-Animal,1.91520820000005,1,0.9
4,30,N_65_Non-Animal_Test.jpg,Non-Animal,2.33971720000045,1,0.3
4,31,F_63_Animal_Test.jpg,Animal,2.4456011000002,1,0.35
4,32,M_27_Non-Animal_Test.jpg,Non-Animal,1.80864220000149,1,1
4,33,F_1_Animal_Test.jpg,Animal,1.81046909999714,1,1
4,34,F_40_Non-Animal_Test.jpg,Animal,2.33951729999899,0,0.35
4,35,H_73_Non-Animal_Test.jpg,Animal,2.02140789999976,0,0.25
4,36,M_52_Non-Animal_Test.jpg,Non-Animal,2.1276711999999,1,0.8
4,37,F_22_Animal_Test.jpg,Animal,1.70417299999826,1,1
4,38,M_65_Non-Animal_Test.jpg,Animal,2.33916750000208,0,0.25
4,39,M_70_Non-Animal_Test.jpg,Non-Animal,3.29350540000087,1,0.85
4,40,H_63_Animal_Test.jpg,Animal,1.80974950000018,1,0.9
4,41,H_52_Animal_Test.jpg,Animal,1.91512180000063,1,1
4,42,H_52_Non-Animal_Test.jpg,Non-Animal,1.80954410000049,1,0.7
4,43,H_11_Non-Animal_Test.jpg,Non-Animal,2.33995659999709,1,0.25
4,44,M_61_Non-Animal_Test.jpg,Non-Animal,2.87027020000096,1,0.7
4,45,H_21_Animal_Test.jpg,Animal,2.86952139999994,1,1
4,46,M_71_Non-Animal_Test.jpg,Non-Animal,1.80826529999831,1,0.8
4,47,F_68_Animal_Test.jpg,Animal,2.12760800000251,1,0.9
4,48,H_54_Animal_Test.jpg,Animal,1.80889170000228,1,1
4,49,M_30_Non-Animal_Test.jpg,Non-Animal,1.70310590000008,1,1
4,50,H_39_Animal_Test.jpg,Animal,1.91474000000017,1,1
4,51,M_6_Animal_Test.jpg,Animal,1.80908900000213,1,1
4,52,M_16_Non-Animal_Test.jpg,Non-Animal,1.59799610000118,1,1
4,53,F_31_Non-Animal_Test.jpg,Non-Animal,1.38469130000158,1,0.95
4,54,N_47_Animal_Test.jpg,Animal,1.702890200002,1,1
4,55,N_63_Animal_Test.jpg,Animal,1.59751610000239,1,1
4,56,M_68_Animal_Test.jpg,Animal,1.59758739999961,1,1
4,57,F_35_Non-Animal_Test.jpg,Non-Animal,2.12784329999704,1,0.35
4,58,H_31_Non-Animal_Test.jpg,Non-Animal,1.06641659999877,1,0.8
4,59,F_12_Animal_Test.jpg,Animal,2.0206242000022,1,0.95
4,60,H_11_Animal_Test.jpg,Animal,1.80936970000039,1,1
4,61,H_72_Animal_Test.jpg,Animal,1.70362309999837,1,1
4,62,H_6_Animal_Test.jpg,Animal,1.49154479999925,1,1
4,63,H_45_Non-Animal_Test.jpg,Non-Animal,2.44778389999919,1,0.35
4,64,M_41_Non-Animal_Test.jpg,Non-Animal,1.91526320000048,1,0.5
4,65,F_51_Non-Animal_Test.jpg,Non-Animal,2.55411950000052,1,0.4
4,66,H_38_Animal_Test.jpg,Animal,1.70326729999942,1,1
4,67,N_61_Animal_Test.jpg,Animal,1.80804849999913,1,1
4,68,F_62_Animal_Test.jpg,Animal,2.02093279999826,1,0.7
4,69,H_28_Animal_Test.jpg,Animal,1.5966980000012,1,1
4,70,H_43_Animal_Test.jpg,Non-Animal,2.97640379999939,0,0.25
4,71,F_45_Non-Animal_Test.jpg,Non-Animal,2.55093209999905,1,0.65
4,72,H_14_Non-Animal_Test.jpg,Non-Animal,2.12619070000073,1,0.9
4,73,H_8_Animal_Test.jpg,Animal,1.70582130000184,1,1
4,74,H_44_Animal_Test.jpg,Animal,1.59900919999927,1,1
4,75,M_75_Non-Animal_Test.jpg,Non-Animal,2.44537299999865,1,0.4
4,76,F_6_Non-Animal_Test.jpg,Non-Animal,1.59792400000151,1,1
4,77,H_65_Animal_Test.jpg,Animal,1.59802169999966,1,1
4,78,H_75_Animal_Test.jpg,Animal,1.17247190000126,1,0.9
4,79,N_16_Animal_Test.jpg,Animal,1.59643150000193,1,1
4,80,N_5_Animal_Test.jpg,Animal,1.59660060000169,1,1
4,81,N_23_Non-Animal_Test.jpg,Non-Animal,2.02217649999875,1,0.95
4,82,F_13_Animal_Test.jpg,Non-Animal,2.12632990000202,0,0.3
4,83,N_28_Non-Animal_Test.jpg,Non-Animal,1.59619740000198,1,0.7
4,84,H_24_Non-Animal_Test.jpg,Non-Animal,1.91544459999932,1,1
4,85,N_31_Animal_Test.jpg,Animal,1.91528209999888,1,0.85
4,86,M_28_Animal_Test.jpg,Animal,1.59704529999726,1,1
4,87,N_29_Non-Animal_Test.jpg,Non-Animal,1.8094514000004,1,0.65
4,88,F_58_Non-Animal_Test.jpg,Non-Animal,1.38421259999814,1,0.6
4,89,M_41_Animal_Test.jpg,Non-Animal,1.38515120000011,0,0.5
4,90,M_32_Non-Animal_Test.jpg,Non-Animal,1.59821829999782,1,0.85
4,91,N_54_Non-Animal_Test.jpg,Non-Animal,3.08264480000071,1,0.55
4,92,N_39_Non-Animal_Test.jpg,Non-Animal,1.80885770000168,1,0.75
4,93,M_42_Animal_Test.jpg,Animal,1.70301810000092,1,1
4,94,H_50_Animal_Test.jpg,Animal,1.59734759999992,1,1
4,95,N_12_Non-Animal_Test.jpg,Non-Animal,1.91538600000058,1,0.3
4,96,M_53_Non-Animal_Test.jpg,Non-Animal,2.12750900000174,1,0.7
4,97,M_10_Animal_Test.jpg,Animal,1.91466659999787,1,1
4,98,H_62_Non-Animal_Test.jpg,Non-Animal,2.55059139999867,1,0.4
4,99,F_32_Non-Animal_Test.jpg,Non-Animal,1.59671530000196,1,0.9
4,100,M_36_Non-Animal_Test.jpg,Non-Animal,2.12766820000252,1,1
4,101,M_25_Non-Animal_Test.jpg,Non-Animal,1.91693870000017,1,1
4,102,F_72_Non-Animal_Test.jpg,Non-Animal,2.55144480000308,1,0.35
4,103,N_69_Animal_Test.jpg,Animal,1.80915420000019,1,0.85
4,104,N_31_Non-Animal_Test.jpg,Non-Animal,1.9158133000019,1,1
4,105,F_46_Animal_Test.jpg,Animal,2.97443449999992,1,0.3
4,106,H_18_Animal_Test.jpg,Animal,1.80813359999956,1,0.8
4,107,F_67_Animal_Test.jpg,Animal,1.81112460000077,1,1
4,108,H_26_Non-Animal_Test.jpg,Non-Animal,1.91446709999946,1,0.95
4,109,F_12_Non-Animal_Test.jpg,Non-Animal,1.80878239999947,1,1
4,110,N_60_Non-Animal_Test.jpg,Non-Animal,2.12741249999817,1,0.85
4,111,N_43_Non-Animal_Test.jpg,Non-Animal,2.23326599999928,1,0.6
4,112,M_54_Non-Animal_Test.jpg,Non-Animal,1.91513649999979,1,0.95
4,113,F_57_Animal_Test.jpg,Animal,2.02071570000044,1,0.7
4,114,F_41_Non-Animal_Test.jpg,Non-Animal,1.81111109999983,1,0.9
4,115,N_9_Animal_Test.jpg,Animal,2.86819679999826,1,0.3
4,116,N_59_Non-Animal_Test.jpg,Non-Animal,1.49052759999904,1,0.6
4,117,H_58_Animal_Test.jpg,Animal,1.7031367999989,1,1
4,118,M_35_Non-Animal_Test.jpg,Non-Animal,1.70383139999831,1,1
4,119,H_71_Animal_Test.jpg,Animal,1.80948669999998,1,1
4,120,N_6_Animal_Test.jpg,Animal,1.7035853999987,1,1
5,1,N_56_Non-Animal_Test.jpg,Non-Animal,2.02787820000231,1,0.35
5,2,F_68_Non-Animal_Test.jpg,Non-Animal,1.17625820000103,1,0.65
5,3,F_35_Animal_Test.jpg,Animal,1.7080704,1,1
5,4,F_37_Non-Animal_Test.jpg,Non-Animal,1.70832230000087,1,0.6
5,5,N_74_Non-Animal_Test.jpg,Non-Animal,1.70741789999738,1,0.6
5,6,M_9_Non-Animal_Test.jpg,Non-Animal,1.70737279999958,1,1
5,7,N_73_Animal_Test.jpg,Animal,1.81551469999977,1,0.7
5,8,F_55_Animal_Test.jpg,Animal,1.60383569999976,1,0.9
5,9,M_74_Animal_Test.jpg,Animal,1.38929220000136,1,0.85
5,10,M_17_Animal_Test.jpg,Animal,1.8155869000002,1,1
5,11,N_36_Animal_Test.jpg,Animal,1.49556920000032,1,1
5,12,N_73_Non-Animal_Test.jpg,Non-Animal,1.8171497000003,1,0.4
5,13,M_56_Animal_Test.jpg,Animal,1.38906570000108,1,0.85
5,14,N_67_Animal_Test.jpg,Animal,1.70697169999767,1,1
5,15,F_40_Animal_Test.jpg,Animal,1.4961108000025,1,0.75
5,16,M_73_Animal_Test.jpg,Animal,1.70755810000264,1,1
5,17,M_67_Non-Animal_Test.jpg,Non-Animal,1.38917059999949,1,0.85
5,18,M_65_Animal_Test.jpg,Animal,1.49550269999963,1,0.85
5,19,H_41_Non-Animal_Test.jpg,Non-Animal,1.92019340000115,1,0.3
5,20,F_60_Animal_Test.jpg,Non-Animal,2.13415919999898,0,0.7
5,21,M_44_Non-Animal_Test.jpg,Non-Animal,1.71027540000068,1,0.7
5,22,H_49_Animal_Test.jpg,Animal,1.81599920000008,1,1
5,23,N_22_Non-Animal_Test.jpg,Non-Animal,2.77184979999947,1,0.8
5,24,M_20_Animal_Test.jpg,Animal,1.70720269999947,1,1
5,25,M_25_Animal_Test.jpg,Animal,1.81486550000045,1,0.8
5,26,H_51_Animal_Test.jpg,Animal,1.70707890000267,1,0.9
5,27,F_38_Animal_Test.jpg,Animal,1.70856830000048,1,0.95
5,28,N_6_Non-Animal_Test.jpg,Non-Animal,1.60308219999933,1,0.95
5,29,H_7_Animal_Test.jpg,Animal,1.60310659999959,1,1
5,30,M_48_Non-Animal_Test.jpg,Non-Animal,1.49593589999859,1,0.7
5,31,N_74_Animal_Test.jpg,Animal,1.60357629999999,1,1
5,32,F_27_Animal_Test.jpg,Animal,1.70957510000153,1,1
5,33,F_74_Animal_Test.jpg,Animal,1.70763850000003,1,0.5
5,34,F_66_Non-Animal_Test.jpg,Non-Animal,1.814473800001,1,0.6
5,35,M_62_Non-Animal_Test.jpg,Non-Animal,1.60061130000031,1,0.5
5,36,M_43_Non-Animal_Test.jpg,Non-Animal,2.45454329999848,1,0.6
5,37,H_35_Animal_Test.jpg,Animal,2.13292800000272,1,1
5,38,N_62_Non-Animal_Test.jpg,Non-Animal,2.55873040000006,1,0.3
5,39,F_4_Animal_Test.jpg,Animal,2.24032179999995,1,0.7
5,40,F_69_Non-Animal_Test.jpg,Non-Animal,2.23943860000145,1,0.55
5,41,M_57_Animal_Test.jpg,Non-Animal,2.24079419999907,0,0.45
5,42,M_66_Animal_Test.jpg,Animal,1.81386080000084,1,1
5,43,M_40_Non-Animal_Test.jpg,Non-Animal,1.81423340000038,1,0.7
5,44,N_18_Animal_Test.jpg,Animal,1.92157439999937,1,1
5,45,M_59_Animal_Test.jpg,Animal,1.92093680000107,1,0.9
5,46,M_31_Animal_Test.jpg,Animal,1.70875929999966,1,1
5,47,H_48_Animal_Test.jpg,Animal,1.38982550000219,1,1
5,48,M_3_Non-Animal_Test.jpg,Non-Animal,1.81393709999975,1,0.9
5,49,H_54_Non-Animal_Test.jpg,Animal,2.34644689999914,0,0.3
5,50,F_6_Animal_Test.jpg,Animal,2.34558430000106,1,1
5,51,N_14_Non-Animal_Test.jpg,Non-Animal,1.7097668000024,1,1
5,52,M_14_Animal_Test.jpg,Non-Animal,2.13479569999981,0,0.8
5,53,N_48_Non-Animal_Test.jpg,Non-Animal,2.02915989999747,1,0.85
5,54,N_27_Non-Animal_Test.jpg,Non-Animal,1.7218935000019,1,1
5,55,M_38_Non-Animal_Test.jpg,Non-Animal,1.92262800000026,1,1
5,56,F_63_Non-Animal_Test.jpg,Non-Animal,2.2390940999976,1,0.95
5,57,M_73_Non-Animal_Test.jpg,Non-Animal,2.13569579999967,1,0.65
5,58,H_14_Animal_Test.jpg,Animal,1.81460290000177,1,1
5,59,M_60_Animal_Test.jpg,Animal,1.81646230000115,1,1
5,60,H_70_Non-Animal_Test.jpg,Non-Animal,2.02646729999833,1,0.65
5,61,N_15_Animal_Test.jpg,Animal,1.70938150000075,1,1
5,62,N_18_Non-Animal_Test.jpg,Non-Animal,1.60273430000234,1,1
5,63,H_36_Non-Animal_Test.jpg,Non-Animal,1.49598719999995,1,1
5,64,F_42_Animal_Test.jpg,Animal,1.70860160000302,1,1
5,65,H_33_Animal_Test.jpg,Animal,1.60505360000025,1,1
5,66,N_13_Non-Animal_Test.jpg,Non-Animal,1.39721929999723,1,0.9
5,67,F_44_Non-Animal_Test.jpg,Non-Animal,1.88372289999825,1,0.4
5,68,N_30_Animal_Test.jpg,Animal,2.78109150000091,1,0.55
5,69,H_64_Animal_Test.jpg,Animal,1.66875390000132,1,1
5,70,F_25_Animal_Test.jpg,Animal,2.52873009999894,1,0.15
5,71,H_56_Non-Animal_Test.jpg,Non-Animal,2.09269839999979,1,1
5,72,H_43_Non-Animal_Test.jpg,Non-Animal,1.64652749999732,1,1
5,73,F_27_Non-Animal_Test.jpg,Non-Animal,1.64654540000265,1,1
5,74,N_40_Non-Animal_Test.jpg,Non-Animal,2.1166489999996,1,0.4
5,75,N_53_Animal_Test.jpg,Animal,1.7673235000002,1,1
5,76,M_67_Animal_Test.jpg,Animal,2.33596039999975,1,0.7
5,77,M_37_Animal_Test.jpg,Animal,1.65287950000129,1,1
5,78,N_55_Non-Animal_Test.jpg,Animal,2.42625819999739,0,0.25
5,79,M_19_Animal_Test.jpg,Animal,1.66373820000081,1,1
5,80,N_30_Non-Animal_Test.jpg,Non-Animal,1.99119169999904,1,1
5,81,F_38_Non-Animal_Test.jpg,Non-Animal,2.8852326999986,1,0.3
5,82,M_39_Animal_Test.jpg,Animal,1.55585369999972,1,0.65
5,83,N_12_Animal_Test.jpg,Animal,1.76539129999946,1,1
5,84,H_26_Animal_Test.jpg,Animal,1.65204670000094,1,1
5,85,F_55_Non-Animal_Test.jpg,Non-Animal,2.09038599999985,1,0.4
5,86,F_62_Non-Animal_Test.jpg,Non-Animal,1.75442710000061,1,0.75
5,87,N_7_Animal_Test.jpg,Animal,1.78480829999899,1,1
5,88,F_39_Animal_Test.jpg,Animal,1.74855870000101,1,1
5,89,N_3_Non-Animal_Test.jpg,Non-Animal,1.74221490000127,1,0.85
5,90,M_64_Non-Animal_Test.jpg,Non-Animal,2.19864940000116,1,0.3
5,91,F_33_Animal_Test.jpg,Animal,1.55352800000037,1,0.95
5,92,M_71_Animal_Test.jpg,Animal,2.32233469999846,1,0.75
5,93,H_5_Animal_Test.jpg,Animal,1.57371090000015,1,1
5,94,H_3_Animal_Test.jpg,Animal,2.77109689999997,1,0.35
5,95,N_17_Non-Animal_Test.jpg,Non-Animal,2.19787619999988,1,1
5,96,F_10_Non-Animal_Test.jpg,Non-Animal,2.08500579999964,1,0.65
5,97,F_52_Animal_Test.jpg,Animal,1.63684840000133,1,0.95
5,98,F_39_Non-Animal_Test.jpg,Non-Animal,2.21863939999821,1,0.35
5,99,M_43_Animal_Test.jpg,Animal,1.65721610000037,1,1
5,100,F_2_Non-Animal_Test.jpg,Non-Animal,1.76438119999875,1,1
5,101,M_74_Non-Animal_Test.jpg,Animal,2.53093459999945,0,0.3
5,102,M_39_Non-Animal_Test.jpg,Animal,2.31646700000056,0,0.65
5,103,N_43_Animal_Test.jpg,Animal,1.54883549999795,1,1
5,104,H_47_Animal_Test.jpg,Animal,1.65848779999942,1,1
5,105,H_37_Animal_Test.jpg,Animal,2.52482899999814,1,0.9
5,106,M_24_Non-Animal_Test.jpg,Non-Animal,1.65362190000087,1,1
5,107,H_22_Non-Animal_Test.jpg,Non-Animal,1.68058920000112,1,1
5,108,N_72_Non-Animal_Test.jpg,Non-Animal,2.40478440000152,1,0.4
5,109,F_67_Non-Animal_Test.jpg,Non-Animal,1.67039450000084,1,0.5
5,110,M_29_Animal_Test.jpg,Animal,2.10516930000085,1,0.75
5,111,H_10_Non-Animal_Test.jpg,Non-Animal,2.97829830000046,1,0.15
5,112,N_27_Animal_Test.jpg,Animal,1.78509589999885,1,1
5,113,N_45_Non-Animal_Test.jpg,Non-Animal,2.20249300000069,1,0.6
5,114,H_6_Non-Animal_Test.jpg,Non-Animal,1.76774219999788,1,1
5,115,H_60_Non-Animal_Test.jpg,Non-Animal,2.3211854000001,1,0.35
5,116,M_26_Non-Animal_Test.jpg,Non-Animal,1.76846479999949,1,1
5,117,H_61_Non-Animal_Test.jpg,Non-Animal,2.64801829999851,1,0.65
5,118,F_72_Animal_Test.jpg,Animal,1.67368789999819,1,0.9
5,119,N_55_Animal_Test.jpg,Animal,1.66346360000171,1,1
5,120,N_29_Animal_Test.jpg,Animal,1.97790689999965,1,1
